File: data/150715_Raman_S8_no_CNT.txt
3002.22	288.167
2999.93	299.032
2997.64	296.749
2995.34	290.105
2993.05	311.811
2990.76	292.088
2988.46	298.526
2986.17	257.038
2983.87	298.324
2981.58	276.455
2979.28	341.643
2976.98	263.215
2974.68	293.571
2972.38	330.427
2970.08	356.392
2967.78	265.031
2965.48	258.426
2963.17	303.928
2960.87	301.655
2958.57	282.028
2956.26	281.932
2953.95	310.02
2951.65	294.744
2949.34	277.312
2947.03	277.218
2944.72	287.949
2942.41	264.044
2940.1	281.263
2937.79	283.331
2935.48	263.776
2933.16	289.623
2930.85	276.561
2928.53	282.946
2926.22	263.418
2923.9	274.121
2921.59	271.87
2919.27	325.702
2916.95	271.685
2914.63	299.615
2912.31	284.429
2909.99	260.638
2907.67	249.783
2905.34	264.767
2903.02	279.74
2900.7	264.587
2898.37	260.196
2896.05	303.101
2893.72	260.019
2891.39	305.043
2889.06	277.022
2886.74	270.488
2884.41	259.666
2882.08	266.014
2879.74	250.911
2877.41	304.421
2875.08	246.455
2872.75	244.228
2870.41	267.703
2868.08	297.585
2865.74	329.586
2863.4	263.151
2861.07	293.004
2858.73	282.214
2856.39	279.981
2854.05	264.93
2851.71	279.79
2849.36	301.046
2847.02	239.047
2844.68	238.966
2842.34	298.606
2839.99	281.447
2837.64	289.877
2835.3	259.948
2832.95	264.119
2830.6	246.995
2828.25	249.04
2825.9	263.85
2823.55	291.412
2821.2	280.681
2818.85	257.203
2816.5	274.115
2814.14	269.773
2811.79	282.422
2809.43	227.134
2807.08	277.985
2804.72	265.163
2802.36	218.42
2800.01	248.023
2797.65	228.867
2795.29	296.578
2792.93	271.064
2790.56	290.025
2788.2	266.647
2785.84	224.246
2783.47	268.58
2781.11	251.576
2778.74	253.603
2776.38	272.53
2774.01	263.99
2771.64	242.788
2769.27	284.914
2766.9	242.622
2764.53	221.449
2762.16	274.081
2759.79	233.943
2757.42	229.65
2755.04	254.845
2752.67	229.493
2750.29	279.928
2747.92	248.272
2745.54	239.774
2743.16	246
2740.78	245.916
2738.4	260.54
2736.02	264.651
2733.64	233.066
2731.26	266.57
2728.88	285.363
2726.49	211.851
2724.11	283.071
2721.72	245.244
2719.34	194.871
2716.95	249.266
2714.56	234.523
2712.18	240.723
2709.78	240.64
2707.4	223.823
2705.01	225.838
2702.61	213.218
2700.22	211.056
2697.83	231.873
2695.43	221.353
2693.04	237.977
2690.64	229.548
2688.25	210.695
2685.85	256.501
2683.45	216.805
2681.05	208.395
2678.65	245.822
2676.25	274.893
2673.85	237.326
2671.45	206.028
2669.04	226.762
2666.64	207.967
2664.23	197.501
2661.83	224.45
2659.42	226.451
2657.01	226.373
2654.61	226.296
2652.2	244.897
2649.79	238.589
2647.38	217.767
2644.97	219.766
2642.55	223.836
2640.14	219.615
2637.73	221.611
2635.31	238.099
2632.9	204.902
2630.48	213.107
2628.06	273.015
2625.64	223.299
2623.23	233.557
2620.81	223.146
2618.38	214.807
2615.96	229.187
2613.54	251.813
2611.12	245.536
2608.69	204.2
2606.27	220.625
2603.84	210.243
2601.42	249.32
2598.99	238.936
2596.56	253.267
2594.13	226.421
2591.7	236.632
2589.27	236.551
2586.84	201.513
2584.41	246.666
2581.98	201.375
2579.54	273.2
2577.11	227.931
2574.67	252.485
2572.24	199.046
2569.8	205.132
2567.36	246.073
2564.92	227.539
2562.48	239.756
2560.04	227.383
2557.6	202.731
2555.16	227.227
2552.71	178.035
2550.27	220.933
2547.83	212.677
2545.38	216.693
2542.93	245.228
2540.49	192.029
2538.04	212.385
2535.59	202.104
2533.14	206.116
2530.69	191.765
2528.24	240.644
2525.78	191.633
2523.33	238.44
2520.88	222.06
2518.42	205.691
2515.97	215.799
2513.51	217.76
2511.05	238.03
2508.59	215.576
2506.13	187.04
2503.68	223.557
2501.21	170.658
2498.75	211.218
2496.29	213.175
2493.83	237.456
2491.36	194.769
2488.9	180.504
2486.43	206.799
2483.96	206.728
2481.5	194.5
2479.03	192.408
2476.56	204.489
2474.09	220.61
2471.62	224.581
2469.15	194.165
2466.67	177.923
2464.2	185.946
2461.72	185.882
2459.25	181.778
2456.77	189.792
2454.3	213.947
2451.82	193.696
2449.34	197.663
2446.86	213.725
2444.38	225.745
2441.9	183.355
2439.42	219.547
2436.93	197.322
2434.45	201.28
2431.96	197.186
2429.48	191.084
2426.99	205.093
2424.51	192.962
2422.02	202.942
2419.53	202.871
2417.04	204.809
2414.55	232.84
2412.06	166.543
2409.56	170.497
2407.07	198.511
2404.58	204.455
2402.08	192.362
2399.58	206.317
2397.09	198.236
2394.59	232.196
2392.09	200.1
2389.59	164.025
2387.09	187.964
2384.59	197.894
2382.09	215.809
2379.59	187.769
2377.08	185.707
2374.58	197.62
2372.07	223.492
2369.57	195.488
2367.06	193.426
2364.55	195.353
2362.04	173.365
2359.53	175.297
2357.02	195.15
2354.51	181.148
2352	216.904
2349.48	200.915
2346.97	224.708
2344.45	182.885
2341.94	180.834
2339.42	202.623
2336.9	186.666
2334.39	226.304
2331.87	228.21
2329.34	226.147
2326.83	192.357
2324.3	184.36
2321.78	196.187
2319.26	208.004
2316.73	209.913
2314.21	197.962
2311.68	213.725
2309.15	187.933
2306.62	170.07
2304.09	199.664
2301.57	183.785
2299.03	205.452
2296.5	221.179
2293.97	205.31
2291.44	181.557
2288.9	183.467
2286.37	195.235
2283.83	201.082
2281.29	163.568
2278.76	193.062
2276.22	191.025
2273.68	175.21
2271.14	194.829
2268.6	204.597
2266.05	192.727
2263.51	220.183
2260.97	190.627
2258.42	186.632
2255.88	172.82
2253.33	170.797
2250.78	170.737
2248.23	164.793
2245.68	182.386
2243.13	158.797
2240.58	190.098
2238.03	195.909
2235.48	168.423
2232.93	178.153
2230.37	144.821
2227.81	197.593
2225.26	207.302
2222.7	201.365
2220.14	162.209
2217.58	169.967
2215.02	181.625
2212.46	179.61
2209.9	167.838
2207.34	185.337
2204.77	163.82
2202.21	194.956
2199.64	175.399
2197.08	198.717
2194.51	171.382
2191.94	194.684
2189.37	214.078
2186.8	196.494
2184.23	194.481
2181.66	229.407
2179.09	378.973
2176.51	262.275
2173.94	207.804
2171.37	184.435
2168.79	180.489
2166.21	186.246
2163.64	166.787
2161.06	224.891
2158.48	184.113
2155.9	172.425
2153.31	203.352
2150.73	197.473
2148.15	168.374
2145.57	197.335
2142.98	197.266
2140.39	201.064
2137.81	170.071
2135.22	195.127
2132.63	216.303
2130.04	185.338
2127.45	204.573
2124.86	212.218
2122.27	194.787
2119.67	190.863
2117.08	219.705
2114.48	233.114
2111.89	173.33
2109.29	177.12
2106.69	180.907
2104.09	194.311
2101.5	176.934
2098.89	205.71
2096.29	178.732
2093.69	2580.14
2091.09	353.373
2088.48	184.304
2085.88	172.724
2083.27	178.42
2080.67	161.097
2078.06	193.632
2075.45	197.397
2072.84	157.096
2070.23	204.919
2067.62	178.045
2065.01	181.81
2062.39	200.878
2059.78	175.946
2057.16	195.002
2054.55	179.645
2051.93	154.746
2049.31	187.158
2046.69	164.183
2044.07	185.118
2041.45	185.053
2038.83	179.267
2036.21	167.766
2033.59	202.011
2030.96	188.604
2028.34	161.876
2025.71	182.761
2023.08	199.824
2020.45	161.706
2017.83	159.747
2015.19	180.603
2012.56	182.44
2009.93	151.98
2007.3	150.028
2004.67	161.366
2002.03	148.025
1999.4	140.384
1996.76	185.849
1994.12	166.826
1991.48	144.027
1988.84	178.076
1986.21	179.907
1983.56	164.699
1980.92	185.458
1978.28	153.233
1975.64	166.417
1972.99	143.673
1970.34	173.859
1967.7	149.239
1965.05	185.067
1962.4	173.675
1959.75	162.292
1957.1	154.689
1954.45	164.063
1951.8	158.35
1949.15	163.948
1946.49	158.239
1943.84	131.819
1941.18	144.95
1938.53	118.554
1935.87	142.967
1933.21	139.156
1930.55	178.583
1927.89	150.333
1925.23	163.429
1922.57	152.105
1919.9	140.788
1917.24	163.257
1914.57	166.951
1911.91	166.892
1909.24	146.214
1906.57	140.54
1903.9	164.843
1901.23	155.422
1898.56	172.214
1895.89	162.797
1893.22	145.905
1890.54	168.292
1887.87	173.841
1885.19	156.962
1882.52	130.756
1879.84	136.311
1877.16	147.463
1874.48	164.205
1871.8	166.012
1869.12	158.495
1866.44	175.215
1863.76	145.34
1861.07	143.426
1858.39	165.719
1855.7	152.631
1853.01	165.602
1850.33	132.063
1847.64	128.298
1844.95	143.122
1842.26	159.794
1839.56	152.308
1836.87	159.681
1834.18	137.352
1831.48	152.147
1828.79	133.545
1826.09	111.248
1823.39	124.183
1820.69	146.373
1818	168.548
1815.3	153.676
1812.59	135.113
1809.89	172.069
1807.19	135.017
1804.49	183.041
1801.78	157.101
1799.07	144.112
1796.37	156.99
1793.66	134.779
1790.95	138.422
1788.24	162.358
1785.53	149.39
1782.82	149.337
1780.1	114.267
1777.39	154.759
1774.68	136.287
1771.96	163.855
1769.25	165.637
1766.53	141.661
1763.81	123.22
1761.09	143.4
1758.37	132.322
1755.65	154.321
1752.93	101.008
1750.2	128.51
1747.48	152.322
1744.75	100.9
1742.03	146.712
1739.3	144.827
1736.57	122.784
1733.84	119.077
1731.11	133.685
1728.38	131.807
1725.65	142.74
1722.92	129.884
1720.18	151.782
1717.45	146.244
1714.71	155.329
1711.97	133.353
1709.24	138.784
1706.5	146.037
1703.76	155.109
1701.02	162.351
1698.28	145.881
1695.53	122.132
1692.79	133.022
1690.04	123.867
1687.3	123.823
1684.55	136.521
1681.81	140.112
1679.06	123.691
1676.31	167.287
1673.56	141.78
1670.81	143.547
1668.05	150.761
1665.3	152.523
1662.54	145.209
1659.79	127.012
1657.03	121.526
1654.28	145.054
1651.52	119.627
1648.76	154.01
1646	143.088
1643.24	139.416
1640.47	159.276
1637.71	146.554
1634.95	146.502
1632.18	160.913
1629.42	140.975
1626.65	133.698
1623.88	137.263
1621.11	171.517
1618.34	153.408
1615.57	156.962
1612.8	135.264
1610.02	140.624
1607.25	162.201
1604.48	133.317
1601.7	165.687
1598.92	144.024
1596.14	145.772
1593.36	149.319
1590.59	151.064
1587.8	161.796
1585.02	145.565
1582.24	129.345
1579.45	145.461
1576.67	123.867
1573.88	134.59
1571.1	161.45
1568.31	159.599
1565.52	123.69
1562.73	139.774
1559.94	127.185
1557.15	125.348
1554.35	118.143
1551.56	134.206
1548.76	135.947
1545.97	153.78
1543.17	128.7
1540.37	144.735
1537.58	108.959
1534.77	101.778
1531.97	148.15
1529.17	135.607
1526.37	128.424
1523.57	123.029
1520.76	139.027
1517.95	119.378
1515.15	128.24
1512.34	117.512
1509.53	126.369
1506.72	120.986
1503.91	136.95
1501.1	151.124
1498.28	110.192
1495.47	122.59
1492.66	115.442
1489.84	111.85
1487.02	136.656
1484.2	122.414
1481.39	120.597
1478.57	143.601
1475.74	136.46
1472.92	113.381
1470.1	118.653
1467.27	127.462
1464.45	132.726
1461.62	134.447
1458.8	134.399
1455.97	136.118
1453.14	137.837
1450.31	139.554
1447.48	123.611
1444.65	146.515
1441.81	119.993
1438.98	123.478
1436.14	121.67
1433.31	149.83
1430.47	126.869
1427.63	123.301
1424.79	121.496
1421.95	112.651
1419.11	107.332
1416.27	84.4279
1413.42	119.563
1410.58	163.462
1407.73	130.02
1404.89	129.973
1402.04	112.369
1399.19	103.553
1396.34	126.324
1393.49	117.509
1390.64	124.48
1387.79	110.414
1384.93	150.67
1382.08	136.605
1379.22	115.547
1376.37	122.506
1373.51	117.214
1370.65	131.162
1367.79	117.129
1364.93	117.087
1362.07	101.323
1359.2	123.988
1356.34	125.689
1353.48	122.154
1350.61	130.832
1347.74	127.297
1344.87	137.711
1342.01	142.889
1339.13	107.999
1336.26	134.079
1333.39	97.4772
1330.52	132.243
1327.64	135.674
1324.77	149.535
1321.89	116.457
1319.01	142.478
1316.14	104.214
1313.26	123.276
1310.38	133.645
1307.5	119.717
1304.61	117.939
1301.73	104.027
1298.84	100.523
1295.96	124.742
1293.07	110.842
1290.18	117.727
1287.29	122.876
1284.41	126.292
1281.51	115.87
1278.62	136.573
1275.73	107.146
1272.84	120.927
1269.94	136.426
1267.04	150.187
1264.15	110.442
1261.25	124.203
1258.35	113.811
1255.45	134.456
1252.55	122.345
1249.65	132.636
1246.74	132.588
1243.84	135.983
1240.93	137.654
1238.02	141.045
1235.12	139.274
1232.21	125.473
1229.3	132.301
1226.39	125.383
1223.48	120.186
1220.56	116.71
1217.65	104.658
1214.73	109.765
1211.82	108.011
1208.9	118.255
1205.98	121.639
1203.06	135.296
1200.14	102.719
1197.22	114.661
1194.3	116.331
1191.38	128.259
1188.45	124.794
1185.53	136.711
1182.6	116.162
1179.67	124.658
1176.74	134.855
1173.81	143.339
1170.88	144.992
1167.95	163.697
1165.02	240.342
1162.08	432.8
1159.15	430.94
1156.21	349.054
1153.27	236.59
1150.34	199.072
1147.4	163.282
1144.46	154.721
1141.51	130.87
1138.57	100.241
1135.63	112.093
1132.68	106.959
1129.74	71.2803
1126.79	122.15
1123.84	123.802
1120.89	108.499
1117.94	94.9024
1114.99	132.138
1112.04	93.14
1109.09	111.727
1106.13	121.84
1103.18	138.712
1100.22	109.915
1097.26	130.159
1094.3	133.492
1091.34	140.2
1088.38	138.46
1085.42	178.92
1082.46	204.164
1079.49	204.09
1076.53	200.644
1073.56	229.224
1070.59	301.589
1067.63	448.009
1064.66	535.394
1061.69	368.581
1058.71	233.854
1055.74	173.225
1052.77	154.669
1049.79	129.404
1046.82	117.597
1043.84	119.233
1040.86	127.584
1037.88	104.043
1034.9	135.878
1031.92	97.26
1028.94	110.635
1025.95	110.595
1022.97	113.904
1019.98	102.142
1017	123.864
1014.01	95.3743
1011.02	110.393
1008.03	105.337
1005.04	108.641
1002.05	116.955
999.054	116.913
996.058	118.54
993.064	88.4551
990.066	126.795
987.068	121.745
984.07	115.032
981.07	118.324
978.07	101.621
975.066	99.9187
972.064	133.176
969.058	119.815
966.054	123.098
963.046	118.064
960.038	146.28
957.03	144.565
954.021	114.613
951.009	127.855
947.997	137.767
944.984	132.739
941.97	106.152
938.954	124.352
935.939	122.649
932.921	154.083
929.902	167.277
926.882	140.726
923.861	157.224
920.839	135.66
917.816	157.109
914.792	160.358
911.767	138.816
908.739	150.329
905.712	130.457
902.685	130.41
899.654	160.065
896.624	135.263
893.591	169.841
890.558	141.757
887.525	161.478
884.489	146.594
881.452	148.187
878.415	134.966
875.376	153.015
872.337	143.09
869.296	138.105
866.253	146.272
863.21	133.075
860.167	147.807
857.12	141.186
854.075	147.699
851.027	149.285
847.978	170.549
844.929	162.29
841.878	213.03
838.825	152.342
835.773	167.024
832.718	193.152
829.663	176.719
826.607	212.639
823.548	197.845
820.489	176.524
817.429	178.093
814.368	210.693
811.306	223.677
808.243	264.397
805.179	340.979
802.112	399.565
799.046	541.253
795.978	700.763
792.909	607.647
789.839	366.408
786.769	286.507
783.696	226.192
780.622	193.575
777.548	165.861
774.472	159.298
771.396	185.237
768.318	146.186
765.237	123.401
762.157	144.455
759.077	128.177
755.993	137.861
752.911	134.568
749.825	118.311
746.739	111.787
743.654	121.463
740.564	110.086
737.476	111.664
734.384	143.977
731.292	122.901
728.2	130.939
725.107	129.274
722.011	104.997
718.915	116.261
715.818	129.131
712.72	146.833
709.62	137.101
706.519	162.848
703.417	161.176
700.314	161.117
697.21	286.682
694.105	262.426
690.997	175.423
687.89	136.747
684.782	139.913
681.671	127
678.56	120.525
675.448	106.023
672.335	118.831
669.22	125.208
666.105	109.115
662.987	133.135
659.87	80.1722
656.751	99.3768
653.63	131.385
650.509	115.32
647.386	142.496
644.263	134.44
641.138	127.991
638.011	155.132
634.884	118.304
631.755	113.466
628.626	140.582
625.495	129.351
622.364	158.038
619.232	138.83
616.097	143.564
612.962	140.322
609.825	145.052
606.687	140.218
603.548	151.315
600.407	141.706
597.267	176.669
594.124	167.057
590.982	179.719
587.837	182.832
584.691	144.622
581.544	154.101
578.396	169.924
575.245	168.274
572.095	147.581
568.945	147.527
565.79	166.501
562.638	166.439
559.482	156.87
556.325	164.731
553.167	178.92
550.009	204.178
546.849	235.746
543.689	194.537
540.527	213.437
537.362	263.932
534.198	249.615
531.032	279.528
527.864	307.84
524.696	273.008
521.529	310.766
518.357	357.958
515.187	351.52
512.013	365.57
508.839	368.585
505.663	385.768
502.487	459.601
499.31	539.673
496.132	608.676
492.95	646.182
489.771	845.539
486.587	996.045
483.404	1267.37
480.22	1624.83
477.034	2214.28
473.847	3562.54
470.659	6449.7
467.47	12831.9
464.279	17921.3
461.087	11348.4
457.894	5055.94
454.7	2504.33
451.505	1830.61
448.308	1348.2
445.111	755.15
441.911	529.814
438.71	415.569
435.509	337.329
432.308	251.341
429.103	255.929
425.898	219.954
422.693	205.838
419.486	177.703
416.277	171.404
413.068	160.436
409.857	179.061
406.644	199.228
403.431	312.734
400.216	528.804
397.001	412.002
393.784	365.224
390.566	211.285
387.347	164.616
384.126	147.478
380.904	125.698
377.681	139.612
374.456	127.154
371.232	102.305
368.005	110.015
364.777	123.914
361.548	123.868
358.318	193.471
355.087	304.796
351.855	182.5
348.62	140.689
345.386	122.09
342.15	128.224
338.911	138.986
335.673	103.429
332.433	120.365
329.193	97.1811
325.95	117.19
322.706	132.561
319.462	110.939
316.216	121.68
312.968	157.046
309.72	140.057
306.47	133.851
303.22	130.725
299.968	150.661
296.714	153.679
293.46	132.114
290.204	167.384
286.948	165.786
283.689	207.155
280.431	173.331
277.169	214.666
273.907	242.175
270.644	337.079
267.38	680.031
264.114	1117.65
260.849	811.14
257.579	510.979
254.312	452.673
251.04	447.917
247.769	481.368
244.495	516.322
241.222	549.722
237.946	653.312
234.671	686.636
231.392	838.906
228.114	1105.41
224.833	1322.95
221.552	1674.4
218.269	2121.52
214.986	2682.5
211.7	3386.1
208.413	3803.18
205.126	3854.97
201.837	3514.53
198.546	2970.73
195.255	2207.08
191.962	1658.1
188.669	1243.11
185.374	958.912
182.077	805.364
178.78	614.029
175.482	550.145
172.181	454.494
168.88	428.578
165.577	364.835
162.273	301.14
158.968	328.255
155.661	346.277
152.355	349.169
149.046	418.543
145.736	401.77
142.425	409.168
139.113	412.032
135.798	512.96
132.484	1081.33
129.167	2579.45
125.849	2132.4
122.53	760.746
119.21	383.994
115.89	218.267
112.568	180.567
109.243	175.986
105.917	148.855
102.591	138.278
100.927	124.727