File: data/150715_Raman_S8_with_CNT.txt
3002.22	176.83
2999.93	178.983
2997.64	170.194
2995.34	187.586
2993.05	176.62
2990.76	152.583
2988.46	193.933
2986.17	161.193
2983.87	204.689
2981.58	191.559
2979.28	182.79
2976.98	184.903
2974.68	182.666
2972.38	193.474
2970.08	156.465
2967.78	182.481
2965.48	180.247
2963.17	143.28
2960.87	136.721
2958.57	206.097
2956.26	175.665
2953.95	182.11
2951.65	173.379
2949.34	218.817
2947.03	164.598
2944.72	205.678
2942.41	170.98
2940.1	199.048
2937.79	190.329
2935.48	188.102
2933.16	175.07
2930.85	185.814
2928.53	159.832
2926.22	194.325
2923.9	192.1
2921.59	161.827
2919.27	198.441
2916.95	181.124
2914.63	206.928
2912.31	204.703
2909.99	183.093
2907.67	187.338
2905.34	170.053
2903.02	148.477
2900.7	195.751
2898.37	191.384
2896.05	171.972
2893.72	174.062
2891.39	189.041
2889.06	171.797
2886.74	148.124
2884.41	175.972
2882.08	169.476
2879.74	182.286
2877.41	173.649
2875.08	177.876
2872.75	186.385
2870.41	171.33
2868.08	171.272
2865.74	192.615
2863.4	173.295
2861.07	175.375
2858.73	149.659
2856.39	170.981
2854.05	205.107
2851.71	173
2849.36	192.157
2847.02	153.673
2844.68	200.561
2842.34	187.695
2839.99	144.988
2837.64	187.567
2835.3	193.896
2832.95	191.7
2830.6	163.954
2828.25	200.083
2825.9	159.586
2823.55	148.897
2821.2	180.741
2818.85	184.931
2816.5	169.994
2814.14	155.066
2811.79	174.125
2809.43	174.066
2807.08	176.128
2804.72	154.855
2802.36	186.611
2800.01	152.63
2797.65	144.101
2795.29	190.657
2792.93	160.944
2790.56	188.41
2788.2	167.183
2785.84	169.242
2783.47	169.184
2781.11	150.1
2778.74	135.255
2776.38	185.912
2774.01	160.506
2771.64	185.785
2769.27	166.728
2766.9	158.232
2764.53	194.031
2762.16	183.423
2759.79	189.684
2757.42	170.657
2755.04	214.828
2752.67	202.122
2750.29	189.425
2747.92	210.4
2745.54	193.502
2743.16	212.359
2740.78	199.675
2738.4	212.214
2736.02	186.936
2733.64	216.268
2731.26	226.689
2728.88	230.808
2726.49	205.559
2724.11	224.36
2721.72	232.668
2719.34	209.539
2716.95	251.361
2714.56	247.087
2712.18	242.816
2709.78	251.103
2707.4	244.742
2705.01	240.476
2702.61	271.749
2700.22	257.028
2697.83	279.919
2695.43	275.647
2693.04	277.64
2690.64	250.416
2688.25	262.847
2685.85	337.831
2683.45	252.244
2681.05	237.57
2678.65	256.238
2676.25	233.242
2673.85	287.289
2671.45	237.245
2669.04	230.922
2666.64	220.445
2664.23	209.975
2661.83	182.886
2659.42	218.141
2657.01	207.682
2654.61	211.763
2652.2	176.409
2649.79	186.722
2647.38	194.954
2644.97	176.227
2642.55	223.836
2640.14	192.681
2637.73	180.189
2635.31	196.69
2632.9	173.856
2630.48	148.968
2628.06	150.985
2625.64	184.015
2623.23	198.42
2620.81	167.359
2618.38	198.284
2615.96	173.439
2613.54	183.699
2611.12	193.953
2608.69	202.137
2606.27	150.52
2603.84	210.243
2601.42	173.082
2598.99	160.664
2596.56	158.549
2594.13	148.203
2591.7	185.19
2589.27	174.842
2586.84	164.5
2584.41	160.333
2581.98	156.168
2579.54	158.169
2577.11	184.809
2574.67	164.218
2572.24	145.693
2569.8	160.003
2567.36	153.796
2564.92	157.843
2562.48	182.379
2560.04	165.928
2557.6	126.963
2555.16	145.343
2552.71	151.432
2550.27	204.568
2547.83	163.598
2545.38	167.63
2542.93	171.66
2540.49	177.729
2538.04	185.837
2535.59	161.275
2533.14	169.383
2530.69	163.204
2528.24	173.345
2525.78	189.594
2523.33	179.339
2520.88	152.793
2518.42	185.326
2515.97	166.939
2513.51	152.636
2511.05	191.237
2508.59	160.665
2506.13	150.445
2503.68	170.716
2501.21	162.531
2498.75	190.908
2496.29	172.57
2493.83	152.215
2491.36	137.961
2488.9	135.885
2486.43	141.921
2483.96	158.086
2481.5	172.214
2479.03	155.951
2476.56	166.021
2474.09	159.892
2471.62	163.883
2469.15	153.714
2466.67	167.814
2464.2	143.502
2461.72	141.432
2459.25	141.383
2456.77	157.487
2454.3	149.359
2451.82	145.272
2449.34	167.409
2446.86	157.27
2444.38	191.48
2441.9	189.399
2439.42	183.291
2436.93	187.255
2434.45	173.101
2431.96	164.992
2429.48	144.821
2426.99	150.803
2424.51	124.621
2422.02	184.858
2419.53	158.682
2417.04	178.706
2414.55	164.594
2412.06	168.55
2409.56	154.451
2407.07	166.428
2404.58	160.357
2402.08	146.275
2399.58	148.228
2397.09	148.177
2394.59	142.12
2392.09	148.074
2389.59	144.022
2387.09	151.971
2384.59	133.928
2382.09	143.873
2379.59	155.808
2377.08	177.72
2374.58	141.727
2372.07	157.642
2369.57	157.587
2367.06	157.533
2364.55	149.505
2362.04	165.395
2359.53	137.449
2357.02	167.271
2354.51	137.354
2352	153.226
2349.48	135.269
2346.97	153.12
2344.45	153.067
2341.94	135.129
2339.42	150.974
2336.9	146.95
2334.39	168.735
2331.87	146.848
2329.34	190.44
2326.83	170.543
2324.3	160.572
2321.78	154.571
2319.26	162.442
2316.73	144.562
2314.21	154.41
2311.68	182.062
2309.15	146.39
2306.62	150.295
2304.09	170.011
2301.57	177.857
2299.03	154.089
2296.5	181.683
2293.97	136.215
2291.44	187.477
2288.9	169.657
2286.37	149.878
2283.83	179.396
2281.29	155.686
2278.76	151.692
2276.22	151.639
2273.68	143.712
2271.14	169.245
2268.6	121.972
2266.05	176.994
2263.51	131.716
2260.97	145.427
2258.42	157.164
2255.88	159.073
2253.33	139.386
2250.78	147.187
2248.23	156.945
2245.68	129.435
2243.13	137.232
2240.58	170.5
2238.03	144.973
2235.48	146.881
2232.93	152.703
2230.37	152.649
2227.81	185.854
2225.26	156.455
2222.7	130.985
2220.14	156.346
2217.58	144.569
2215.02	177.719
2212.46	148.373
2209.9	167.838
2207.34	177.534
2204.77	142.368
2202.21	146.217
2199.64	157.859
2197.08	146.115
2194.51	167.487
2191.94	163.535
2189.37	167.37
2186.8	147.857
2184.23	169.198
2181.66	190.525
2179.09	349.822
2176.51	198.163
2173.94	161.194
2171.37	168.904
2168.79	159.141
2166.21	182.366
2163.64	153.212
2161.06	143.465
2158.48	127.91
2155.9	158.863
2153.31	127.821
2150.73	151.009
2148.15	164.503
2145.57	148.968
2142.98	154.718
2140.39	144.998
2137.81	156.543
2135.22	168.08
2132.63	133.258
2130.04	173.754
2127.45	185.273
2124.86	163.987
2122.27	194.787
2119.67	152.305
2117.08	169.597
2114.48	196.509
2111.89	163.7
2109.29	150.167
2106.69	161.661
2104.09	171.224
2101.5	171.164
2098.89	151.879
2096.29	174.888
2093.69	182.512
2091.09	159.402
2088.48	145.907
2085.88	176.563
2083.27	163.072
2080.67	143.836
2078.06	161.04
2075.45	185.898
2072.84	153.264
2070.23	141.72
2067.62	153.157
2065.01	149.276
2062.39	168.355
2059.78	170.208
2057.16	168.237
2054.55	141.422
2051.93	139.462
2049.31	141.323
2046.69	135.546
2044.07	141.224
2041.45	154.529
2038.83	167.825
2036.21	148.701
2033.59	146.744
2030.96	154.312
2028.34	148.545
2025.71	144.685
2023.08	127.507
2020.45	152.194
2017.83	169.256
2015.19	180.603
2012.56	155.834
2009.93	155.78
2007.3	132.936
2004.67	119.6
2002.03	125.252
1999.4	151.767
1996.76	128.957
1994.12	123.224
1991.48	109.915
1988.84	96.6156
1986.21	136.351
1983.56	153.34
1980.92	121.115
1978.28	126.748
1975.64	132.377
1972.99	128.549
1970.34	162.52
1967.7	141.683
1965.05	117.083
1962.4	128.369
1959.75	96.2427
1957.1	126.392
1954.45	141.434
1951.8	133.844
1949.15	143.219
1946.49	128.098
1943.84	128.053
1941.18	148.715
1938.53	114.79
1935.87	146.729
1933.21	127.873
1930.55	159.785
1927.89	133.42
1925.23	114.588
1922.57	129.571
1919.9	112.631
1917.24	123.85
1914.57	112.551
1911.91	112.512
1909.24	97.4757
1906.57	134.919
1903.9	129.252
1901.23	121.716
1898.56	131.032
1895.89	114.145
1893.22	140.293
1890.54	130.894
1887.87	145.802
1885.19	119.59
1882.52	130.756
1879.84	143.78
1877.16	108.264
1874.48	164.205
1871.8	128.706
1869.12	100.691
1866.44	117.431
1863.76	126.706
1861.07	126.662
1858.39	128.479
1855.7	119.127
1853.01	104.199
1850.33	102.302
1847.64	132.016
1844.95	118.959
1842.26	163.51
1839.56	122.589
1836.87	133.687
1834.18	118.791
1831.48	115.038
1828.79	129.836
1826.09	152.039
1823.39	120.476
1820.69	113.022
1818	151.878
1815.3	111.091
1812.59	118.455
1809.89	136.915
1807.19	133.168
1804.49	120.178
1801.78	121.984
1799.07	153.35
1796.37	134.826
1793.66	134.779
1790.95	125.503
1788.24	140.218
1785.53	138.324
1782.82	116.151
1780.1	141.913
1777.39	125.281
1774.68	147.337
1771.96	95.7353
1769.25	138.031
1766.53	126.943
1763.81	123.22
1761.09	126.853
1758.37	102.917
1755.65	134.112
1752.93	126.719
1750.2	124.838
1747.48	95.4304
1744.75	122.915
1742.03	80.6916
1739.3	106.328
1736.57	122.784
1733.84	133.732
1731.11	113.541
1728.38	120.823
1725.65	128.1
1722.92	129.884
1720.18	135.324
1717.45	133.448
1714.71	124.264
1711.97	116.912
1709.24	127.828
1706.5	98.5748
1703.76	109.489
1701.02	124.043
1698.28	129.47
1695.53	107.549
1692.79	131.2
1690.04	118.402
1687.3	118.36
1684.55	127.42
1681.81	152.849
1679.06	141.881
1676.31	141.83
1673.56	150.868
1670.81	141.73
1668.05	112.617
1665.3	128.919
1662.54	134.318
1659.79	88.9087
1657.03	107.015
1654.28	132.362
1651.52	166.753
1648.76	154.01
1646	150.333
1643.24	157.522
1640.47	146.606
1637.71	162.837
1634.95	148.31
1632.18	130.177
1629.42	157.241
1626.65	169.833
1623.88	164.354
1621.11	164.295
1618.34	209.357
1615.57	220.107
1612.8	227.243
1610.02	263.219
1607.25	356.841
1604.48	396.349
1601.7	405.212
1598.92	525.688
1596.14	502.105
1593.36	559.495
1590.59	429.812
1587.8	364.94
1585.02	380.984
1582.24	353.901
1579.45	303.492
1576.67	290.818
1573.88	344.55
1571.1	272.671
1568.31	240.296
1565.52	206.15
1562.73	238.332
1559.94	179.133
1557.15	195.185
1554.35	211.226
1551.56	177.152
1548.76	160.99
1545.97	159.144
1543.17	150.15
1540.37	125.08
1537.58	153.615
1534.77	126.776
1531.97	144.58
1529.17	110.627
1526.37	126.64
1523.57	121.246
1520.76	126.55
1517.95	115.814
1515.15	142.489
1512.34	124.634
1509.53	147.727
1506.72	113.869
1503.91	81.8142
1501.1	113.788
1498.28	127.965
1495.47	149.24
1492.66	118.994
1489.84	94.0956
1487.02	113.584
1484.2	117.092
1481.39	117.05
1478.57	131.191
1475.74	134.688
1472.92	143.498
1470.1	113.34
1467.27	116.84
1464.45	120.338
1461.62	137.985
1458.8	134.399
1455.97	116.673
1453.14	160.81
1450.31	93.6248
1447.48	123.611
1444.65	112.975
1441.81	109.406
1438.98	107.602
1436.14	130.487
1433.31	121.627
1430.47	105.724
1427.63	140.915
1424.79	110.931
1421.95	102.09
1419.11	140.764
1416.27	94.9814
1413.42	137.146
1410.58	98.4285
1407.73	94.8791
1404.89	142.268
1402.04	110.613
1399.19	101.797
1396.34	91.2338
1393.49	114.001
1390.64	99.9345
1387.79	108.662
1384.93	92.8547
1382.08	134.854
1379.22	85.7851
1376.37	122.506
1373.51	125.961
1370.65	111.925
1367.79	108.388
1364.93	132.815
1362.07	113.551
1359.2	103.033
1356.34	143.146
1353.48	111.684
1350.61	113.388
1347.74	106.372
1344.87	102.847
1342.01	94.0975
1339.13	123.676
1336.26	99.2536
1333.39	99.2178
1330.52	102.662
1327.64	81.7523
1324.77	119.976
1321.89	109.504
1319.01	121.627
1316.14	74.6869
1313.26	81.6051
1310.38	98.9322
1307.5	102.367
1304.61	121.408
1301.73	110.962
1298.84	103.989
1295.96	109.149
1293.07	112.574
1290.18	115.995
1287.29	114.223
1284.41	100.342
1281.51	84.7407
1278.62	138.302
1275.73	115.786
1272.84	108.834
1269.94	105.341
1267.04	112.208
1264.15	115.619
1261.25	89.7019
1258.35	106.914
1255.45	129.284
1252.55	99.9437
1249.65	91.2949
1246.74	108.481
1243.84	92.9502
1240.93	117.006
1238.02	129.004
1235.12	94.5689
1232.21	132.349
1229.3	134.019
1226.39	115.077
1223.48	108.168
1220.56	102.98
1217.65	109.805
1214.73	106.335
1211.82	99.439
1208.9	94.2614
1205.98	107.933
1203.06	123.307
1200.14	112.991
1197.22	111.239
1194.3	109.488
1191.38	124.839
1188.45	128.213
1185.53	105.951
1182.6	129.828
1179.67	114.412
1176.74	121.199
1173.81	138.219
1170.88	129.64
1167.95	189.274
1165.02	238.638
1162.08	390.202
1159.15	410.5
1156.21	328.622
1153.27	190.633
1150.34	202.475
1147.4	149.675
1144.46	147.92
1141.51	127.471
1138.57	132.522
1135.63	86.6175
1132.68	95.0749
1129.74	98.4347
1126.79	110.275
1123.84	88.1877
1120.89	106.804
1117.94	133.88
1114.99	105.032
1112.04	98.2204
1109.09	110.035
1106.13	133.686
1103.18	116.721
1100.22	147.117
1097.26	113.256
1094.3	121.663
1091.34	133.443
1088.38	138.46
1085.42	182.296
1082.46	212.601
1079.49	227.704
1076.53	200.644
1073.56	210.684
1070.59	306.644
1067.63	473.272
1064.66	548.863
1061.69	353.434
1058.71	211.983
1055.74	176.588
1052.77	154.669
1049.79	131.084
1046.82	119.277
1043.84	119.233
1040.86	92.3302
1037.88	115.79
1034.9	120.781
1031.92	108.998
1028.94	119.016
1025.95	115.622
1022.97	97.1537
1019.98	117.212
1017	92.0614
1014.01	97.0475
1011.02	107.048
1008.03	91.9607
1005.04	96.9413
1002.05	103.589
999.054	95.2004
996.058	108.522
993.064	85.1172
990.066	105.106
987.068	106.736
984.07	106.697
981.07	86.6595
978.07	96.6233
975.066	113.241
972.064	106.541
969.058	99.8457
966.054	84.8378
963.046	104.761
960.038	101.399
957.03	129.61
954.021	142.851
951.009	92.9852
947.997	117.849
944.984	101.213
941.97	157.57
938.954	116.062
935.939	124.306
932.921	132.545
929.902	134.152
926.882	152.315
923.861	158.879
920.839	140.623
917.816	165.378
914.792	147.133
911.767	143.774
908.739	128.853
905.712	140.366
902.685	156.822
899.654	135.312
896.624	141.861
893.591	163.245
890.558	181.317
887.525	159.83
884.489	144.947
881.452	171.239
878.415	133.32
875.376	131.625
872.337	131.577
869.296	126.597
866.253	133.124
863.21	126.504
860.167	142.88
857.12	152.678
854.075	167.392
851.027	146.004
847.978	157.43
844.929	172.126
841.878	137.65
838.825	171.999
835.773	178.486
832.718	152.23
829.663	160.356
826.607	179.925
823.548	178.224
820.489	201.041
817.429	187.896
814.368	207.427
811.306	215.514
808.243	297.038
805.179	349.137
802.112	393.042
799.046	521.69
795.978	677.947
792.909	586.469
789.839	363.151
786.769	253.95
783.696	198.529
780.622	180.562
777.548	172.365
774.472	139.792
771.396	128.366
768.318	123.446
765.237	151.003
762.157	146.079
759.077	146.025
755.993	129.752
752.911	121.598
749.825	115.07
746.739	126.368
743.654	145.756
740.564	121.418
737.476	118.137
734.384	106.769
731.292	135.838
728.2	130.939
725.107	103.42
722.011	122.765
718.915	124.335
715.818	119.447
712.72	133.924
709.62	154.843
706.519	156.399
703.417	154.729
700.314	209.452
697.21	264.134
694.105	252.766
690.997	183.47
687.89	154.444
684.782	138.305
681.671	109.317
678.56	130.167
675.448	136.545
672.335	131.677
669.22	123.602
666.105	112.324
662.987	125.115
659.87	123.465
656.751	120.214
653.63	134.59
650.509	123.328
647.386	124.884
644.263	118.436
641.138	135.991
638.011	129.543
634.884	118.304
631.755	121.457
628.626	118.217
625.495	142.127
622.364	135.689
619.232	143.617
616.097	132.398
612.962	108.43
609.825	129.112
606.687	132.251
603.548	148.13
600.407	149.667
597.267	154.387
594.124	157.511
590.982	174.948
587.837	151.035
584.691	162.104
581.544	142.98
578.396	149.279
575.245	157.161
572.095	158.69
568.945	147.527
565.79	149.058
562.638	196.556
559.482	158.454
556.325	186.907
553.167	188.421
550.009	234.251
546.849	205.685
543.689	230.914
540.527	238.733
537.362	252.869
534.198	236.976
531.032	263.735
527.864	269.952
524.696	274.586
521.529	296.569
518.357	309.074
515.187	304.23
512.013	337.207
508.839	354.408
505.663	390.491
502.487	458.027
499.31	544.393
496.132	580.365
492.95	691.777
489.771	807.82
486.587	945.772
483.404	1257.94
480.22	1560.46
477.034	2178.18
473.847	3493.52
470.659	6487.34
467.47	12929.1
464.279	17803.8
461.087	11293.6
457.894	5032.45
454.7	2527.81
451.505	1791.49
448.308	1407.64
445.111	781.728
441.911	490.742
438.71	378.074
435.509	304.533
432.308	284.125
429.103	252.808
425.898	213.715
422.693	213.635
419.486	182.379
416.277	180.753
413.068	161.994
409.857	149.477
406.644	191.446
403.431	314.289
400.216	505.475
397.001	387.127
393.784	379.211
390.566	209.731
387.347	128.898
384.126	142.821
380.904	113.283
377.681	128.753
374.456	142.661
371.232	130.207
368.005	85.2227
364.777	111.523
361.548	136.254
358.318	198.114
355.087	328.003
351.855	156.207
348.62	131.412
345.386	114.363
342.15	126.679
338.911	115.822
335.673	114.235
332.433	126.537
329.193	121.862
325.95	100.229
322.706	101.733
319.462	117.103
316.216	140.162
312.968	143.189
309.72	130.823
306.47	138.466
303.22	133.801
299.968	127.601
296.714	133.7
293.46	150.548
290.204	159.706
286.948	185.742
283.689	170.327
280.431	219.348
277.169	239.199
273.907	245.24
270.644	312.564
267.38	592.73
264.114	1034.97
260.849	780.53
257.579	507.919
254.312	443.498
251.04	418.871
247.769	452.333
244.495	525.487
241.222	528.344
237.946	660.944
234.671	750.722
231.392	872.462
228.114	1042.9
224.833	1266.56
221.552	1645.45
218.269	2075.83
214.986	2729.69
211.7	3323.71
208.413	3783.4
205.126	3858.01
201.837	3440.04
198.546	2852.2
195.255	2156.95
191.962	1667.21
188.669	1227.93
185.374	1004.43
182.077	781.097
178.78	624.642
175.482	544.083
172.181	457.524
168.88	416.462
165.577	364.835
162.273	341.998
158.968	288.925
155.661	335.692
152.355	352.192
149.046	410.988
145.736	404.791
142.425	416.717
139.113	457.31
135.798	515.977
132.484	1097.92
129.167	2695.53
125.849	2148.98
122.53	784.849
119.21	328.277
115.89	243.857
112.568	186.586
109.243	185.011
105.917	151.862
102.591	132.265
100.927	124.727